Folder: Py2DeX/Dioptas_main/ExampleData

Note: README.md
Dioptas
======

A GUI program for fast analysis of powder X-ray diffraction Images. It provides the capability of calibrating, creating masks, having spectrum overlays and showing phase lines.

Maintainer
----------

Clemens Prescher (clemens.prescher@gmail.com)

Requirements
------------
    * python 2.7
    * PyQt4
    * numpy
    * scipy
    * pyFAI (https://github.com/kif/pyFAI)
    * fabio (https://github.com/kif/fabio)
    * pyqtgraph (http://www.pyqtgraph.org/) - version 0.9.9
    * pyfits
    * scikit-image

<b>optional:</b>

    * pyopencl
    * fftw3

It is known to run on Windows, Mac and Linux. For optimal usage on a windows machine it should be run with 64 bit python.

Installation
------------

#### Windows ####

The easiest way to obtain almost all required packages is to install WinPython 64 bit. After this installation you need to install pyFAI, fabio and pyqtgraph. Please refer to the links above for their respective installation instructions. For 64 bit compilation of the c-code in pyFAI and fabio the easiest available compilers are either included in Visual Studio (not the express edition) or the  Windows Software Development Kit version 7.1 (http://msdn.microsoft.com/en-us/windowsserver/bb980924.aspx )

#### OS X ####

Python and the other required packages can be installed by using a package manager like macports. For pyFAI, fabio, and pyqtgraph please refer to their installation instructions.

#### Linux ####

to be filled

File: Fe7C3_300_020.chi
D:\Arbeit\APS\Projects\Fe7C3 melting\BGI time\Fe7C3_300\Fe7C3_300_020.tif: 2-the
2-Theta Angle (Degrees)

       1449
 0.0937886  36.7791
 0.197998  36.309
 0.302208  36.5867
 0.406417  35.7322
 0.510627  37.0693
 0.614836  39.7582
 0.719046  41.131
 0.823256  42.9241
 0.927465  46.6211
 1.03167  50.5924
 1.13588  56.7392
 1.24009  64.8683
 1.3443  76.3439
 1.44851  86.4753
 1.55272  96.5073
 1.65693  106.048
 1.76114  116.1
 1.86535  123.115
 1.96956  130.431
 2.07377  133.84
 2.17798  137.605
 2.28219  140.356
 2.3864  143.67
 2.49061  146.303
 2.59482  147.785
 2.69903  151.257
 2.80324  153.165
 2.90745  153.762
 3.01166  154.316
 3.11587  156.27
 3.22008  159.631
 3.32429  160.021
 3.42849  164.236
 3.5327  166.332
 3.63691  170.108
 3.74112  177.322
 3.84533  191.093
 3.94954  206.043
 4.05375  219.254
 4.15796  232.753
 4.26217  244.162
 4.36638  256.601
 4.47059  272.456
 4.5748  285.115
 4.67901  305.149
 4.78322  334.047
 4.88743  365.774
 4.99164  389.846
 5.09585  413.121
 5.20006  435.416
 5.30427  458.922
 5.40848  473.149
 5.51269  484.712
 5.6169  493.353
 5.72111  502.144
 5.82531  515.046
 5.92952  519.452
 6.03373  528.924
 6.13794  533.566
 6.24215  540.608
 6.34636  551.401
 6.45057  563.091
 6.55478  559.455
 6.65899  559.482
 6.7632  565.718
 6.86741  573.014
 6.97162  584.375
 7.07583  596.3
 7.18004  616.331
 7.28425  651.277
 7.38846  678.009
 7.49267  676.973
 7.59688  674.195
 7.70109  677.35
 7.8053  700.976
 7.90951  796.552
 8.01372  1653.99
 8.11793  926.797
 8.22214  892.261
 8.32634  903.14
 8.43055  827.743
 8.53476  826.386
 8.63897  1242.35
 8.74318  1283.49
 8.84739  1083.84
 8.9516  2082.01
 9.05581  2294.07
 9.16002  1019.54
 9.26423  801.934
 9.36844  765.083
 9.47265  756.539
 9.57686  771.164
 9.68107  834.344
 9.78528  812.317
 9.88949  865.729
 9.9937  997.197
 10.0979  1199.64
 10.2021  1214.57
 10.3063  867.463
 10.4105  829.661
 10.5147  994.098
 10.619  867.364
 10.7232  798.974
 10.8274  797.676
 10.9316  803.665
 11.0358  802.484
 11.14  799.79
 11.2442  796.863
 11.3484  807.739
 11.4526  829.191
 11.5568  798.997
 11.6611  792.092
 11.7653  790.511
 11.8695  785.708
 11.9737  784.316
 12.0779  799.444
 12.1821  828.324
 12.2863  812.418
 12.3905  827.141
 12.4947  819.688
 12.5989  802.623
 12.7031  818.257
 12.8074  863.102
 12.9116  827.752
 13.0158  806.671
 13.12  805.042
 13.2242  809.691
 13.3284  812.755
 13.4326  812.964
 13.5368  825.058
 13.641  878.303
 13.7452  846.009
 13.8495  835.029
 13.9537  823.141
 14.0579  813.404
 14.1621  821.28
 14.2663  813.025
 14.3705  800.323
 14.4747  805.992
 14.5789  833.12
 14.6831  819.177
 14.7873  794.313
 14.8915  785.511
 14.9958  789.311
 15.1  829.649
 15.2042  967.698
 15.3084  899.854
 15.4126  843.966
 15.5168  911.165
 15.621  958.603
 15.7252  984.993
 15.8294  993.443
 15.9336  830.116
 16.0379  772.668
 16.1421  763.274
 16.2463  767.752
 16.3505  767.95
 16.4547  749.94
 16.5589  738.139
 16.6631  730.538
 16.7673  722.404
 16.8715  716.986
 16.9757  710.892
 17.0799  710.585
 17.1842  720.697
 17.2884  723.97
 17.3926  716.182
 17.4968  706.982
 17.601  703.842
 17.7052  700.165
 17.8094  702.122
 17.9136  705.604
 18.0178  720.581
 18.122  722.843
 18.2263  709.606
 18.3305  701.006
 18.4347  700.68
 18.5389  704.188
 18.6431  705.938
 18.7473  710.846
 18.8515  708.972
 18.9557  705.068
 19.0599  700.128
 19.1641  694.299
 19.2684  692.76
 19.3726  695.649
 19.4768  699.205
 19.581  696.389
 19.6852  697.373
 19.7894  695.607
 19.8936  694.465
 19.9978  694.731
 20.102  696.792
 20.2062  699.618
 20.3104  705.355
 20.4147  709.535
 20.5189  708.921
 20.6231  713.185
 20.7273  721.45
 20.8315  731.161
 20.9357  738.229
 21.0399  738.363
 21.1441  734.347
 21.2483  733.62
 21.3525  733.106
 21.4568  737.839
 21.561  737.536
 21.6652  741.497
 21.7694  747.705
 21.8736  761.024
 21.9778  780.208
 22.082  778.973
 22.1862  775.195
 22.2904  668.823
 22.3946  108.275
 22.4988  0.0000000E+00
 22.6031  0.0000000E+00
 22.7073  0.0000000E+00
 22.8115  0.0000000E+00
 22.9157  0.0000000E+00
 23.0199  0.0000000E+00
 23.1241  0.0000000E+00
 23.2283  0.0000000E+00
 23.3325  0.0000000E+00
 23.4367  0.0000000E+00
 23.5409  0.0000000E+00
 23.6452  0.0000000E+00
 23.7494  0.0000000E+00
 23.8536  0.0000000E+00
 23.9578  0.0000000E+00
 24.062  0.0000000E+00
 24.1662  0.0000000E+00
 24.2704  0.0000000E+00
 24.3746  0.0000000E+00
 24.4788  0.0000000E+00
 24.583  0.0000000E+00
 24.6872  0.0000000E+00
 24.7915  0.0000000E+00
 24.8957  0.0000000E+00
 24.9999  0.0000000E+00
 25.1041  0.0000000E+00
 25.2083  0.0000000E+00
 25.3125  0.0000000E+00
 25.4167  0.0000000E+00
 25.5209  0.0000000E+00
 25.6251  0.0000000E+00
 25.7293  0.0000000E+00
 25.8336  0.0000000E+00
 25.9378  0.0000000E+00
 26.042  0.0000000E+00
 26.1462  0.0000000E+00
 26.2504  0.0000000E+00
 26.3546  0.0000000E+00
 26.4588  0.0000000E+00
 26.563  0.0000000E+00
 26.6672  0.0000000E+00
 26.7714  0.0000000E+00
 26.8756  0.0000000E+00
 26.9799  0.0000000E+00
 27.0841  0.0000000E+00
 27.1883  0.0000000E+00
 27.2925  0.0000000E+00
 27.3967  0.0000000E+00
 27.5009  0.0000000E+00
 27.6051  0.0000000E+00
 27.7093  0.0000000E+00
 27.8135  0.0000000E+00
 27.9177  0.0000000E+00
 28.022  0.0000000E+00
 28.1262  0.0000000E+00
 28.2304  0.0000000E+00
 28.3346  0.0000000E+00
 28.4388  0.0000000E+00
 28.543  0.0000000E+00
 28.6472  0.0000000E+00
 28.7514  0.0000000E+00
 28.8556  0.0000000E+00
 28.9598  0.0000000E+00
 29.0641  0.0000000E+00
 29.1683  0.0000000E+00
 29.2725  0.0000000E+00
 29.3767  0.0000000E+00
 29.4809  0.0000000E+00
 29.5851  0.0000000E+00
 29.6893  0.0000000E+00
 29.7935  0.0000000E+00
 29.8977  0.0000000E+00
 30.0019  0.0000000E+00
 30.1061  0.0000000E+00
 30.1895  0.0000000E+00